================================================================================
SDTM IMPLEMENTATION GUIDE RAG SYSTEM - PROJECT SUMMARY
================================================================================

PROJECT LOCATION:
/sessions/affectionate-awesome-johnson/mnt/AI_Clinical_Programming/sdtm_ig_db/

PROJECT PURPOSE:
A Python-based Retrieval-Augmented Generation (RAG) system for semantic search
and lookup of SDTM (Study Data Tabulation Model) Implementation Guide content,
stored in PostgreSQL with pgvector for semantic search. Enables AI models to
retrieve relevant SDTM mapping guidance with full citation trails.

================================================================================
PROJECT STRUCTURE
================================================================================

PROJECT ROOT:
  ├── Core Python Modules (Infrastructure Code)
  │   ├── config.py                    (6.3 KB) - Configuration management
  │   ├── setup_db.py                  (13 KB)  - Database schema creation
  │   ├── load_sdtm_ig.py              (26 KB)  - Content loader & chunking
  │   ├── query_ig.py                  (21 KB)  - Query interface
  │   └── orchestrator_example.py       (17 KB)  - AI orchestration example
  │
  ├── Documentation
  │   ├── README.md                    (22 KB)  - Complete documentation
  │   ├── ARCHITECTURE.md              (17 KB)  - Architecture deep-dive
  │   ├── QUICKSTART.md                (9 KB)   - 5-minute quick start
  │   └── PROJECT_SUMMARY.txt          (this file)
  │
  ├── Configuration Files
  │   ├── .env.example                 (1.6 KB) - Environment template
  │   └── requirements.txt             (1.2 KB) - Python dependencies
  │
  └── Content Directory
      └── sdtm_ig_content/
          ├── dm_domain.md             (22 KB)  - DM domain IG content
          └── general_assumptions.md   (17 KB)  - General SDTM rules

TOTAL PROJECT SIZE: ~175 KB (production-ready, documented, with sample content)

================================================================================
FILE DESCRIPTIONS
================================================================================

1. config.py (6.3 KB)
   Purpose: Centralized configuration management
   Key Features:
   - Database connection settings (host, port, user, password)
   - Embedding model configuration (provider, dimensions)
   - Chunking parameters (size, overlap, limits)
   - Query settings (top_k, similarity threshold)
   - RAG-specific settings (context size, inclusion flags)
   - Environment variable overrides
   - Configuration validation
   
   Classes:
   - DatabaseConfig: PostgreSQL settings
   - EmbeddingConfig: Embedding model settings
   - ChunkingConfig: Text chunking parameters
   - QueryConfig: Search parameters
   - RAGConfig: RAG architecture settings
   - LoggingConfig: Logging configuration
   - Config: Unified configuration access

2. setup_db.py (13 KB)
   Purpose: Create PostgreSQL database schema with pgvector
   Key Features:
   - PostgreSQL connection management
   - pgvector extension installation
   - Table creation:
     * sdtm_ig_chunks: Chunked content with embeddings
     * controlled_terminology: Valid codelist values
     * mapping_assumptions: Mapping rules and approaches
   - Index creation for performance
   - Database creation if needed
   - Schema initialization validation
   
   Classes:
   - SDTMIGDatabase: Main database management class
   
   Functions:
   - create_database_if_not_exists(): Create DB if needed
   - setup_extensions(): Install pgvector
   - create_chunks_table(): Create chunks table
   - create_controlled_terminology_table(): Create CT table
   - create_mapping_assumptions_table(): Create assumptions table

3. load_sdtm_ig.py (26 KB)
   Purpose: Load SDTM IG content into database
   Key Features:
   - Markdown file reading from sdtm_ig_content/
   - Intelligent text chunking:
     * Section-aware (preserves structure)
     * Size-aware (~500 tokens per chunk)
     * Overlap-aware (100 token overlap)
     * Metadata tracking (domain, section, type)
   - Embedding generation:
     * Mock embeddings for training (deterministic)
     * OpenAI API support
     * Claude API support (placeholder)
   - Database loading with transaction management
   - Controlled terminology loading
   - Mapping assumptions loading
   - Logging and error handling
   
   Classes:
   - TextChunker: Intelligent text chunking
   - ContentProcessor: Metadata extraction
   - EmbeddingGenerator: Embedding generation
   - SDTMIGLoader: Main loader orchestrator
   
   Functions:
   - chunk_by_sections(): Smart semantic chunking
   - generate(): Generate embeddings
   - load_all(): Complete load process

4. query_ig.py (21 KB)
   Purpose: Query interface for IG retrieval
   Key Features:
   - PostgreSQL connection pooling
   - Semantic search with similarity scoring
   - Variable documentation retrieval
   - Codelist (controlled terminology) lookup
   - Mapping assumptions retrieval
   - Complete mapping context assembly
   - Cosine similarity calculation
   - Example query execution
   
   Classes:
   - SDTMIGQuery: Main query interface
   
   Functions:
   - semantic_search(): Find similar chunks
   - get_variable_documentation(): Get complete variable info
   - get_codelist_values(): Lookup valid values
   - get_mapping_assumptions(): Get rules
   - get_context_for_mapping(): Assemble AI context (PRIMARY)
   - get_domain_overview(): Get domain overview

5. orchestrator_example.py (17 KB)
   Purpose: Demonstrate AI orchestration with RAG
   Key Features:
   - Example mapping decisions with IG context
   - Multiple decision types:
     * Simple mapping (SEX)
     * Complex with alternatives (RACE)
     * Derivation rules (RFSTDTC)
   - Decision formatting and reporting
   - Demo workflow execution
   - Integration pattern for AI models
   
   Classes:
   - MappingDecision: Dataclass for decisions
   - SDTMMappingOrchestrator: Orchestration logic
   
   Functions:
   - decide_sex_mapping(): Simple mapping example
   - decide_race_mapping(): Complex mapping with approaches
   - decide_rfstdtc_derivation(): Derivation with multiple approaches
   - format_decision_report(): Format for human review

6. README.md (22 KB)
   Purpose: Complete user documentation
   Sections:
   - Architecture overview (RAG pattern)
   - Problem statement (why RAG matters)
   - System components
   - Setup and installation (step-by-step)
   - Database schema (detailed)
   - Loading content
   - Querying the system
   - Example use cases
   - How AI orchestrator uses system
   - Configuration reference
   - Troubleshooting
   - Development notes
   - Further resources

7. ARCHITECTURE.md (17 KB)
   Purpose: Technical architecture documentation
   Sections:
   - Executive summary
   - Problem statement
   - System architecture (high-level flow)
   - Database design (three-table schema)
   - Content chunking strategy
   - Embedding strategy (mock vs. production)
   - Query interface documentation
   - AI orchestrator integration
   - Real-world scenarios
   - Configuration and deployment
   - Complete workflow example
   - Future enhancements

8. QUICKSTART.md (9 KB)
   Purpose: 5-minute quick start guide
   Sections:
   - Installation (5 steps)
   - Basic usage (5 examples)
   - Common tasks
   - Configuration
   - Troubleshooting
   - API reference
   - Example output
   - Next steps

9. .env.example (1.6 KB)
   Purpose: Environment variable template
   Covers:
   - Database configuration
   - Embedding settings
   - Chunking parameters
   - Query configuration
   - RAG settings
   - Logging settings
   - Development flags

10. requirements.txt (1.2 KB)
    Purpose: Python dependencies
    Includes:
    - Core: psycopg2 (PostgreSQL adapter)
    - Embeddings: openai, anthropic (optional)
    - Utilities: python-dotenv, requests
    - Development: pytest, black, pylint, mypy
    - Optional: numpy, pandas, sqlalchemy

11. dm_domain.md (22 KB)
    Purpose: Sample SDTM IG content for DM domain
    Covers:
    - DM domain overview and purpose
    - 27 DM variables with:
      * Format and controlled terminology info
      * Detailed definitions and assumptions
      * Multiple valid approaches where applicable
      * Examples and usage guidance
    - Cross-references to IG sections
    - Summary table of all DM variables
    - Variables covered:
      STUDYID, DOMAIN, USUBJID, SUBJID, RFSTDTC, RFENDTC,
      RFXSTDTC, RFXENDTC, RFICDTC, RFPENDTC, DTHDTC, DTHFL,
      SITEID, INVID, INVNAM, BRTHDTC, AGE, AGEU, SEX, RACE,
      ETHNIC, ARMCD, ARM, ACTARMCD, ACTARM, COUNTRY, DMDTC, DMDY

12. general_assumptions.md (17 KB)
    Purpose: Cross-domain SDTM rules and assumptions
    Covers:
    - ISO 8601 date/time requirements
    - Character vs. numeric variable rules
    - USUBJID construction rules
    - Controlled terminology application rules
    - Missing data handling
    - Domain linking and referential integrity
    - Reference variables (RF--) rules
    - Derived vs. source variables
    - Domain-specific exceptions

================================================================================
KEY TECHNOLOGIES
================================================================================

Backend:
- PostgreSQL 12+: Relational database with pgvector extension
- pgvector: Vector similarity search (semantic search)
- psycopg2: Python PostgreSQL adapter

Python:
- Python 3.8+: Core implementation language
- Config management: Environment variables
- Logging: Built-in logging module

Optional (for Production):
- OpenAI API: text-embedding-3-small model
- Anthropic Claude API: Future embedding support

Data Format:
- Markdown: IG content source format
- JSON: Configuration and output serialization
- ISO 8601: Date/time standardization

================================================================================
DATABASE SCHEMA
================================================================================

Three-Table Design:

1. sdtm_ig_chunks (Content Storage with Embeddings)
   - id (SERIAL PRIMARY KEY)
   - domain VARCHAR(10) - SDTM domain (DM, AE, LB, etc.)
   - section VARCHAR(255) - Major section
   - subsection VARCHAR(255) - Subsection
   - content TEXT - Actual chunk text (~2000 chars)
   - chunk_type VARCHAR(50) - Type (overview, variable_def, etc.)
   - sequence INT - Order within document
   - embedding vector(1536) - Embedding for semantic search
   - created_at, updated_at - Timestamps
   - Indexes: domain, section, (domain, sequence), embedding

2. controlled_terminology (Codelist Management)
   - id (SERIAL PRIMARY KEY)
   - codelist_code VARCHAR(20) - NCI code (C66742, C74456, etc.)
   - codelist_name VARCHAR(255) - Friendly name (Sex, Race, etc.)
   - term_code VARCHAR(20) - NCI term code
   - term_value VARCHAR(255) - Actual value (M, F, WHITE, etc.)
   - synonyms TEXT - Alternate values
   - definition TEXT - Definition from NCI
   - created_at - Timestamp
   - Indexes: codelist_code, codelist_name, term_value

3. mapping_assumptions (Rules and Guidance)
   - id (SERIAL PRIMARY KEY)
   - domain VARCHAR(10) - Domain (DM, AE, GENERAL)
   - variable VARCHAR(50) - Variable (NULL for domain-level)
   - assumption_text TEXT - The rule itself
   - ig_reference VARCHAR(255) - IG citation
   - priority INT - 1=Critical, 2=Important, 3=Info
   - approach_number INT - Multiple valid approaches
   - created_at - Timestamp
   - Indexes: domain, (domain, variable), priority

================================================================================
SAMPLE DATA INCLUDED
================================================================================

DM Domain Content (dm_domain.md - 22 KB):
- Complete documentation for 27 DM variables
- Multiple valid approaches for:
  * RFSTDTC derivation (3 approaches)
  * RACE mapping (3 approaches when multiple races)
  * Date imputation (multiple approaches)
  * SEX determination (3 approaches)
- 25+ mapping assumptions loaded with priorities
- Cross-domain references and example scenarios

General Assumptions (general_assumptions.md - 17 KB):
- ISO 8601 date formatting rules
- Character vs. numeric variable rules
- USUBJID construction and uniqueness
- Controlled terminology application
- Missing data representation
- Cross-domain linking and referential integrity
- Reference variable rules
- 20+ general assumptions with priority levels

Controlled Terminology Sample Data:
- SEX (C66742): M, F, U
- RACE (C74456): 9 standard categories + MULTIPLE
- ETHNICITY (C74457): Hispanic/Latino categories
- DTHFL (C66742): Yes/No

Total Sample Content:
- 27 content chunks from DM domain
- 12 content chunks from general assumptions
- 25 controlled terminology entries
- 20 mapping assumptions with multiple approaches

================================================================================
QUERY CAPABILITIES
================================================================================

Primary Query Functions:

1. semantic_search(query, domain, top_k, threshold)
   - Find chunks by keyword/semantic similarity
   - Returns: Top-K chunks with content, section, relevance

2. get_variable_documentation(domain, variable)
   - Get complete variable documentation
   - Returns: Definition + assumptions + CT + approaches

3. get_codelist_values(variable/codelist_name/codelist_code)
   - Look up valid values for any variable
   - Returns: List of values with definitions, synonyms, codes

4. get_mapping_assumptions(domain, variable, priority)
   - Retrieve mapping rules
   - Returns: Rules in priority order with approaches

5. get_context_for_mapping(domain, variable, question) ← PRIMARY FOR AI
   - Retrieve complete context for mapping decision
   - Returns: Documentation + CT + assumptions + related questions
   - Designed for AI model consumption

6. get_domain_overview(domain)
   - Get domain-level documentation
   - Returns: Overview + variable list

Example Results:
- Simple mapping: SEX variable → 3 approaches + CT + rules
- Complex mapping: RACE with multiple values → All 3 IG approaches shown
- Derivation: RFSTDTC → All approaches + priorities + citations

================================================================================
RAG ARCHITECTURE FLOW
================================================================================

1. INGESTION (One-time):
   Raw IG Markdown → Chunking → Embedding → PostgreSQL

2. RETRIEVAL (Per query):
   Question → Semantic Search → Retrieve Chunks → Score Relevance

3. CONTEXT ASSEMBLY (Per mapping):
   Chunks + CT + Assumptions → Format → Prompt

4. AI GENERATION (Per decision):
   Prompt + Context → Claude/GPT-4 → Decision with citations

5. VALIDATION (Human review):
   Decision → Manager review → Approve/Override → Store result

================================================================================
USE CASES DEMONSTRATED
================================================================================

1. Simple Variable Mapping
   Q: "How do I map SEX value 'Male'?"
   A: "SEX = 'M' (from codelist C66742)"
   Context: Definition, valid values, assumptions

2. Complex Multi-Value Mapping
   Q: "Subject reports multiple races (White, Asian). What do I do?"
   A: "Use RACE='MULTIPLE', record in SUPPDM (Approach 2 recommended)"
   Context: 3 different approaches from IG, each detailed

3. Derivation with Multiple Valid Approaches
   Q: "How should I derive RFSTDTC: IC date or first dose?"
   A: "Depends on study design. 3 approaches documented in IG"
   Context: All approaches with pros/cons and priorities

4. Missing Data Handling
   Q: "Only partial death date known (month/year). How to handle?"
   A: "Impute day=15 per IG, flag in SUPPDM as 'DTHIMP'"
   Context: Multiple imputation approaches documented

5. Edge Case Resolution
   Q: "RACE 'Other - Specify'. Source says 'Hawaiian'. What now?"
   A: "Reclassify to 'NATIVE HAWAIIAN OR OTHER PACIFIC ISLANDER', 
       record original in SUPPDM"
   Context: Reclassification approach with preservation rules

================================================================================
INTEGRATION POINTS FOR AI
================================================================================

For Claude or GPT-4 Integration:

from orchestrator_example import SDTMMappingOrchestrator

orchestrator = SDTMMappingOrchestrator()

# Orchestrator automatically:
# 1. Queries IG database for context
# 2. Formats context for AI model
# 3. Sends to Claude/GPT-4
# 4. Parses decision with citations
# 5. Returns with full audit trail

decision = orchestrator.map_variable(
    domain="DM",
    variable="RACE",
    source_data={
        "source_values": ["White", "Asian"],
        "record_id": "SUB123",
        "protocol": "STUDY456"
    }
)

# Returns:
# {
#   "value": "MULTIPLE",
#   "reasoning": "Multiple races reported...",
#   "citations": ["IG Section 2.3.x", ...],
#   "confidence": "high",
#   "alternatives": [all 3 approaches from IG]
# }

================================================================================
DEPLOYMENT CONFIGURATIONS
================================================================================

Development (Training):
- EMBEDDING_PROVIDER=mock
- PGHOST=localhost
- LOG_LEVEL=DEBUG
- No API keys needed
- All files in /sessions/affectionate-awesome-johnson/...

Testing:
- EMBEDDING_PROVIDER=mock or openai (test key)
- PGHOST=localhost or test server
- LOG_LEVEL=INFO
- Full data validation

Production:
- EMBEDDING_PROVIDER=openai
- PGHOST=cloud-database-server
- OPENAI_API_KEY=<production_key>
- LOG_LEVEL=WARNING
- Monitoring and alerts enabled
- Connection pooling optimized
- Regular backups configured

================================================================================
FUTURE ENHANCEMENTS
================================================================================

1. Multi-Domain Support
   - Add AE, LB, EX domains
   - Cross-domain linking
   - Domain-specific logic

2. Version Control
   - Track IG version changes
   - Diff between versions
   - Backwards compatibility

3. Learning System
   - Track approved/rejected decisions
   - Retrain or adjust prompts
   - Continuous improvement feedback loop

4. Advanced Search
   - Faceted search by domain/section/type
   - Hybrid semantic + keyword search
   - Search suggestions/autocomplete

5. Governance Framework
   - Complete audit trail
   - Compliance reporting
   - Decision approval workflows
   - Regulatory submission support

================================================================================
HOW TO USE THIS PROJECT
================================================================================

Quick Start (5 minutes):
1. Read QUICKSTART.md
2. Run: python setup_db.py
3. Run: python load_sdtm_ig.py
4. Run: python query_ig.py --examples

Understanding:
1. Read README.md for complete guide
2. Read ARCHITECTURE.md for technical design
3. Review example code and comments

Integration:
1. Review orchestrator_example.py
2. Connect to your Claude/GPT-4 API
3. Build your mapping decision workflow
4. Implement human review layer

Customization:
1. Add new IG content to sdtm_ig_content/
2. Customize config.py for your environment
3. Extend query_ig.py for domain-specific queries
4. Modify orchestrator_example.py for your logic

================================================================================
FILES AND LOCATIONS
================================================================================

All files located in:
/sessions/affectionate-awesome-johnson/mnt/AI_Clinical_Programming/sdtm_ig_db/

├── config.py                           (Python: Configuration)
├── setup_db.py                         (Python: Database Setup)
├── load_sdtm_ig.py                     (Python: Content Loading)
├── query_ig.py                         (Python: Query Interface)
├── orchestrator_example.py             (Python: AI Orchestration)
├── README.md                           (Doc: Complete Guide)
├── ARCHITECTURE.md                     (Doc: Architecture)
├── QUICKSTART.md                       (Doc: Quick Start)
├── PROJECT_SUMMARY.txt                 (This file)
├── .env.example                        (Config: Environment Template)
├── requirements.txt                    (Config: Python Dependencies)
└── sdtm_ig_content/
    ├── dm_domain.md                    (Content: DM Domain)
    └── general_assumptions.md          (Content: General Rules)

================================================================================
KEY TAKEAWAYS
================================================================================

1. COMPLETE RAG SYSTEM
   Production-ready code for semantic search over SDTM IG documentation

2. GROUNDED AI DECISIONS
   Every mapping decision references actual IG sections with citations

3. EXTENSIBLE ARCHITECTURE
   Easy to add new domains, variables, or content

4. FULL DOCUMENTATION
   README, ARCHITECTURE, QUICKSTART - everything explained

5. WORKING EXAMPLES
   Sample DM domain + general assumptions fully implemented

6. MULTIPLE APPROACHES
   System captures and retrieves multiple valid approaches from IG

7. INTEGRATION READY
   Example orchestrator shows how to connect Claude/GPT-4

8. AUDIT TRAIL
   Complete traceability from decision to IG section

================================================================================
END OF SUMMARY
================================================================================
